Folder: battery_app2/data

File: MnO2_coin cell_cycling_C02.txt
cycle number	Q discharge/mA.h	Q charge/mA.h	Ewe/V	(Q-Qo)/mA.h	time/s	<I>/mA	Capacity/mA.h	Efficiency/%
0,000000000000000E+000	0,000000000000000E+000	0,000000000000000E+000	2,7614701E+000	0,000000000000000E+000	0,000000000000000E+000	0,000000000000000E+000	0,000000000000000E+000	0,0000000E+000
0,000000000000000E+000	1,258732135984044E+001	0,000000000000000E+000	2,2996449E+000	-1,193023600642602E+001	1,091047841402212E+004	-4,497706610154906E+000	1,258732135984044E+001	0,0000000E+000
0,000000000000000E+000	2,701754777988641E+001	0,000000000000000E+000	2,1118336E+000	-2,636046206672494E+001	2,246047827418403E+004	-4,497768878657578E+000	2,701754777988641E+001	0,0000000E+000
0,000000000000000E+000	4,144755180684793E+001	0,000000000000000E+000	1,1770430E+000	-4,079046561847655E+001	3,401047815170325E+004	-4,497479106826014E+000	4,144755180684793E+001	0,0000000E+000
1,000000000000000E+000	0,000000000000000E+000	9,414864701904142E+000	2,7644491E+000	-3,362361088257811E+001	4,363965216963900E+004	4,501081922606301E+000	9,414864701904142E+000	0,0000000E+000
1,000000000000000E+000	0,000000000000000E+000	2,385625451183599E+001	2,8673832E+000	-1,918222063137280E+001	5,518965219115267E+004	4,501217905844268E+000	2,385625451183599E+001	0,0000000E+000
1,000000000000000E+000	2,955661582212395E+000	0,000000000000000E+000	2,4751012E+000	-1,108269247751949E+001	6,669710813576984E+004	-4,497708250609003E+000	2,955661582212395E+000	0,0000000E+000
1,000000000000000E+000	1,738606616963640E+001	0,000000000000000E+000	2,2817025E+000	-2,551309671543209E+001	7,824718240366573E+004	-4,497742189536281E+000	1,738606616963640E+001	0,0000000E+000
1,000000000000000E+000	3,181634987096550E+001	0,000000000000000E+000	1,4800823E+000	-3,994338003839398E+001	8,979725667163811E+004	-4,497614924751414E+000	3,181634987096550E+001	0,0000000E+000
2,000000000000000E+000	0,000000000000000E+000	6,458042716213174E+000	2,7441540E+000	-3,872354820868071E+001	9,945493798717609E+004	4,501164616953735E+000	6,458042716213174E+000	0,0000000E+000
2,000000000000000E+000	0,000000000000000E+000	2,089960493442904E+001	2,8537145E+000	-2,428198549680628E+001	1,110050122550935E+005	4,501091651209751E+000	2,089960493442904E+001	0,0000000E+000
2,000000000000000E+000	4,078029612961875E-001	0,000000000000000E+000	2,6974266E+000	-1,109120305205385E+001	1,225073831343387E+005	-4,497802462490256E+000	4,078029612961875E-001	0,0000000E+000
2,000000000000000E+000	1,483811246486097E+001	0,000000000000000E+000	2,3174615E+000	-2,552151220639981E+001	1,340574385755524E+005	-4,497713996601547E+000	1,483811246486097E+001	0,0000000E+000
2,000000000000000E+000	2,926826097533063E+001	0,000000000000000E+000	1,5674686E+000	-3,995166032376682E+001	1,456074403826850E+005	-4,497655023673508E+000	2,926826097533063E+001	0,0000000E+000
3,000000000000000E+000	0,000000000000000E+000	5,937345503726697E+000	2,7408924E+000	-3,973234293491427E+001	1,552327772886842E+005	4,501360990500891E+000	5,937345503726697E+000	0,0000000E+000
3,000000000000000E+000	0,000000000000000E+000	2,037896601355362E+001	2,8509340E+000	-2,529072194999403E+001	1,667827790958162E+005	4,501275467903925E+000	2,037896601355362E+001	0,0000000E+000
3,000000000000000E+000	2,980358259100649E-001	0,000000000000000E+000	2,7232478E+000	-1,186771249799861E+001	1,782951320970594E+005	-4,497628724537964E+000	2,980358259100649E-001	0,0000000E+000
3,000000000000000E+000	1,472824397851416E+001	0,000000000000000E+000	2,3249278E+000	-2,629792029180394E+001	1,898451339041931E+005	-4,497774087992292E+000	1,472824397851416E+001	0,0000000E+000
3,000000000000000E+000	2,915826890794611E+001	0,000000000000000E+000	1,5499272E+000	-4,072794475091658E+001	2,013951357113272E+005	-4,497545123193903E+000	2,915826890794611E+001	0,0000000E+000
4,000000000000000E+000	0,000000000000000E+000	6,299694934194482E+000	2,7431419E+000	-3,977143548352581E+001	2,110103124157332E+005	4,501158191250548E+000	6,299694934194482E+000	0,0000000E+000
4,000000000000000E+000	0,000000000000000E+000	2,074118336854217E+001	2,8549290E+000	-2,532994654855169E+001	2,225603142228662E+005	4,501177620155538E+000	2,074118336854217E+001	0,0000000E+000
4,000000000000000E+000	8,614670731621054E-001	0,000000000000000E+000	2,6468301E+000	-1,304905376078550E+001	2,340608586222617E+005	-4,497631712009745E+000	8,614670731621054E-001	0,0000000E+000
4,000000000000000E+000	1,529148629618071E+001	0,000000000000000E+000	2,3230793E+000	-2,747907261391841E+001	2,456108604293946E+005	-4,497649934874510E+000	1,529148629618071E+001	0,0000000E+000
4,000000000000000E+000	2,972150023233599E+001	0,000000000000000E+000	1,4943011E+000	-4,190908608462969E+001	2,571608622365273E+005	-4,497609404018044E+000	2,972150023233599E+001	0,0000000E+000
5,000000000000000E+000	0,000000000000000E+000	7,021462672356766E+000	2,7419846E+000	-3,954383546589820E+001	2,668034013446639E+005	4,501262431770732E+000	7,021462672356766E+000	0,0000000E+000
5,000000000000000E+000	0,000000000000000E+000	2,146322701676125E+001	2,8557806E+000	-2,510207065327538E+001	2,783534697391819E+005	4,501302198868093E+000	2,146322701676125E+001	0,0000000E+000
5,000000000000000E+000	1,427438961988476E+000	0,000000000000000E+000	2,6000147E+000	-1,393051880595234E+001	2,898722817569830E+005	-4,497598534152325E+000	1,427438961988476E+000	0,0000000E+000
5,000000000000000E+000	1,585749080850215E+001	0,000000000000000E+000	2,3194168E+000	-2,836057027306554E+001	3,014223501515021E+005	-4,497711267801791E+000	1,585749080850215E+001	0,0000000E+000
5,000000000000000E+000	3,028749751754584E+001	0,000000000000000E+000	1,4343325E+000	-4,279057646539699E+001	3,129724185460135E+005	-4,497540870658023E+000	3,028749751754584E+001	0,0000000E+000
6,000000000000000E+000	0,000000000000000E+000	7,727129397633421E+000	2,7433481E+000	-3,903372254855919E+001	3,226301863504016E+005	4,501405620395960E+000	7,727129397633421E+000	0,0000000E+000
6,000000000000000E+000	0,000000000000000E+000	2,216900352576500E+001	2,8557653E+000	-2,459184797949939E+001	3,341802547449190E+005	4,501399427082495E+000	2,216900352576500E+001	0,0000000E+000
6,000000000000000E+000	1,659427700653818E+000	0,000000000000000E+000	2,5916891E+000	-1,388789366638152E+001	3,456962465648188E+005	-4,497585350530929E+000	1,659427700653818E+000	0,0000000E+000
6,000000000000000E+000	1,608930334328411E+001	0,000000000000000E+000	2,3284416E+000	-2,831776893636889E+001	3,572463149593365E+005	-4,497585948678275E+000	1,608930334328411E+001	0,0000000E+000
6,000000000000000E+000	3,051912016747787E+001	0,000000000000000E+000	1,4684911E+000	-4,274758513716316E+001	3,687963833538555E+005	-4,497479968613875E+000	3,051912016747787E+001	0,0000000E+000
7,000000000000000E+000	0,000000000000000E+000	7,390147386720444E+000	2,7399604E+000	-3,968668658142492E+001	3,784720271449196E+005	4,501446603091106E+000	7,390147386720444E+000	0,0000000E+000
7,000000000000000E+000	0,000000000000000E+000	2,183219523446433E+001	2,8528285E+000	-2,524463831707637E+001	3,900220955394371E+005	4,501381852687099E+000	2,183219523446433E+001	0,0000000E+000
7,000000000000000E+000	1,248321968179411E+000	0,000000000000000E+000	2,6255422E+000	-1,373755254340336E+001	4,015224489709958E+005	-4,497547732758679E+000	1,248321968179411E+000	0,0000000E+000
7,000000000000000E+000	1,567823737947128E+001	0,000000000000000E+000	2,3367481E+000	-2,816746758200815E+001	4,130725173655041E+005	-4,497642435306359E+000	1,567823737947128E+001	0,0000000E+000
7,000000000000000E+000	3,010804014475796E+001	0,000000000000000E+000	1,5091119E+000	-4,259726971003728E+001	4,246225857600123E+005	-4,497450427725496E+000	3,010804014475796E+001	0,0000000E+000
8,000000000000000E+000	0,000000000000000E+000	7,053979027523042E+000	2,7345259E+000	-4,025427393272835E+001	4,343349123237669E+005	4,501345079606289E+000	7,053979027523042E+000	0,0000000E+000
8,000000000000000E+000	0,000000000000000E+000	2,149575466540412E+001	2,8476114E+000	-2,581249781918401E+001	4,458849807182793E+005	4,501306598674883E+000	2,149575466540412E+001	0,0000000E+000
8,000000000000000E+000	8,381469097779326E-001	0,000000000000000E+000	2,6682978E+000	-1,345647935374883E+001	4,574081251328514E+005	-4,497788012744557E+000	8,381469097779326E-001	0,0000000E+000
8,000000000000000E+000	1,526829562893043E+001	0,000000000000000E+000	2,3432217E+000	-2,788662769636819E+001	4,689581935273702E+005	-4,497790786310304E+000	1,526829562893043E+001	0,0000000E+000
8,000000000000000E+000	2,969832218200693E+001	0,000000000000000E+000	1,5256145E+000	-4,231665373714775E+001	4,805082619218826E+005	-4,497724685195055E+000	2,969832218200693E+001	0,0000000E+000
9,000000000000000E+000	0,000000000000000E+000	6,775692636489683E+000	2,7350528E+000	-4,046823159673988E+001	4,901711453224551E+005	4,501434179992608E+000	6,775692636489683E+000	0,0000000E+000
9,000000000000000E+000	0,000000000000000E+000	2,121758180915390E+001	2,8446019E+000	-2,602634196750874E+001	5,017212137169698E+005	4,501354878812468E+000	2,121758180915390E+001	0,0000000E+000
9,000000000000000E+000	6,533741026283635E-001	0,000000000000000E+000	2,6928091E+000	-1,332012829151519E+001	5,132286287432702E+005	-4,497716401819852E+000	6,533741026283635E-001	0,0000000E+000
9,000000000000000E+000	1,508326809650473E+001	0,000000000000000E+000	2,3463151E+000	-2,775002191853825E+001	5,247786969038099E+005	-4,497750090650293E+000	1,508326809650473E+001	0,0000000E+000
9,000000000000000E+000	2,951304395955673E+001	0,000000000000000E+000	1,5275126E+000	-4,217979713987284E+001	5,363287597908191E+005	-4,497630350790670E+000	2,951304395955673E+001	0,0000000E+000
1,000000000000000E+001	0,000000000000000E+000	6,686882121133277E+000	2,7375622E+000	-4,046560415243737E+001	5,459569920260869E+005	4,501294639466944E+000	6,686882121133277E+000	0,0000000E+000
1,000000000000000E+001	0,000000000000000E+000	2,112876405297789E+001	2,8512626E+000	-2,602372176911661E+001	5,575070549130971E+005	4,501439648700585E+000	2,112876405297789E+001	0,0000000E+000
1,000000000000000E+001	1,212734460540639E+000	0,000000000000000E+000	2,6322029E+000	-1,443727204658598E+001	5,690140226527825E+005	-4,497649764235664E+000	1,212734460540639E+000	0,0000000E+000
1,000000000000000E+001	1,404425944734803E+001	0,000000000000000E+000	2,3555806E+000	-2,726879669945399E+001	5,792848021029308E+005	-4,497482105669135E+000	1,404425944734803E+001	4,1394367E+001